# Onda Corporation
# Hydrophone Calibration Data
# 
Calibration_DATE	29-Jan-2019
# 
# Hydrophone description
HYD_MFG	Onda
HYD_MODEL	HGL
HYD_APERTURE_NOM_UM	0200
HYD_SN	1782
HYD_POLARITY	Positive
# 
# External preamplifier description
AMP_MFG	NONE
AMP_MODEL	NONE
AMP_SN	NONE
AMP_GAIN_NOM_DB	NONE
AMP_BW_MHZ	NONE
AMP_OUTPUT_IMP_NOM_OHMS	NONE
# 
# Cable/adaptor between hydrophone and preamplifier
CA_BWT_HYD_AMP	NONE 
# 
# Environment
ELECTRICAL_LOAD	OpenCircuit
WATER_TEMP_DEGC	23.5
WATER_RESISTIVITY_MOHMS-CM	4.0
#
# Calibration data
# Freq(MHz) Sens(dB re. 1V/uPa) Sens(V/Pa) Sens(V^2cm^2/W) Cap(pF)
#
DATA_FIELDS	5
DATA_FIELD	FREQ_MHz
DATA_FIELD	SENS_DB
DATA_FIELD	SENS_VPERPA
DATA_FIELD	SENS_V2CM2PERW
DATA_FIELD	CAP_PF
# End of file header
HEADER_END	0
 1.000	 -269.55	  3.332E-008	1.665E-005	      9.616
 1.050	 -269.68	  3.281E-008	1.615E-005	      9.609
 1.100	 -269.80	  3.237E-008	1.572E-005	      9.601
 1.150	 -269.99	  3.168E-008	1.505E-005	      9.594
 1.200	 -270.55	  2.969E-008	1.322E-005	      9.587
 1.250	 -270.32	  3.049E-008	1.395E-005	      9.579
 1.300	 -270.36	  3.033E-008	1.380E-005	      9.572
 1.350	 -270.87	  2.859E-008	1.226E-005	      9.565
 1.400	 -271.03	  2.808E-008	1.183E-005	      9.558
 1.450	 -271.11	  2.784E-008	1.162E-005	      9.551
 1.500	 -271.12	  2.779E-008	1.159E-005	      9.545
 1.550	 -271.29	  2.726E-008	1.115E-005	      9.538
 1.600	 -271.32	  2.718E-008	1.108E-005	      9.531
 1.650	 -271.16	  2.768E-008	1.149E-005	      9.525
 1.700	 -271.61	  2.628E-008	1.036E-005	      9.518
 1.750	 -271.76	  2.582E-008	1.000E-005	      9.512
 1.800	 -271.33	  2.714E-008	1.105E-005	      9.505
 1.850	 -271.21	  2.751E-008	1.135E-005	      9.499
 1.900	 -271.28	  2.729E-008	1.117E-005	      9.493
 1.950	 -271.36	  2.703E-008	1.096E-005	      9.487
 2.000	 -271.37	  2.702E-008	1.095E-005	      9.481
 2.050	 -271.38	  2.697E-008	1.091E-005	      9.475
 2.100	 -271.45	  2.675E-008	1.073E-005	      9.469
 2.150	 -271.51	  2.658E-008	1.060E-005	      9.463
 2.200	 -271.52	  2.654E-008	1.057E-005	      9.457
 2.250	 -271.51	  2.657E-008	1.059E-005	      9.451
 2.300	 -271.28	  2.729E-008	1.117E-005	      9.445
 2.350	 -271.45	  2.677E-008	1.075E-005	      9.440
 2.400	 -271.44	  2.681E-008	1.078E-005	      9.434
 2.450	 -271.55	  2.647E-008	1.051E-005	      9.429
 2.500	 -271.67	  2.610E-008	1.022E-005	      9.423
 2.550	 -271.71	  2.596E-008	1.011E-005	      9.418
 2.600	 -271.51	  2.658E-008	1.059E-005	      9.412
 2.650	 -271.65	  2.615E-008	1.026E-005	      9.407
 2.700	 -271.69	  2.602E-008	1.016E-005	      9.402
 2.750	 -271.42	  2.684E-008	1.081E-005	      9.397
 2.800	 -271.15	  2.770E-008	1.151E-005	      9.392
 2.850	 -271.24	  2.740E-008	1.126E-005	      9.387
 2.900	 -271.36	  2.704E-008	1.097E-005	      9.382
 2.950	 -271.36	  2.704E-008	1.097E-005	      9.377
 3.000	 -271.35	  2.706E-008	1.098E-005	      9.372
 3.050	 -271.29	  2.724E-008	1.113E-005	      9.367
 3.100	 -271.24	  2.742E-008	1.128E-005	      9.362
 3.150	 -271.18	  2.761E-008	1.143E-005	      9.358
 3.200	 -271.14	  2.774E-008	1.154E-005	      9.353
 3.250	 -271.26	  2.736E-008	1.123E-005	      9.349
 3.300	 -271.28	  2.728E-008	1.116E-005	      9.344
 3.350	 -271.23	  2.744E-008	1.130E-005	      9.340
 3.400	 -271.07	  2.795E-008	1.172E-005	      9.335
 3.450	 -271.00	  2.818E-008	1.191E-005	      9.331
 3.500	 -271.27	  2.732E-008	1.119E-005	      9.326
 3.550	 -271.42	  2.684E-008	1.080E-005	      9.322
 3.600	 -271.17	  2.762E-008	1.145E-005	      9.318
 3.650	 -271.11	  2.782E-008	1.161E-005	      9.314
 3.700	 -271.25	  2.737E-008	1.124E-005	      9.310
 3.750	 -271.26	  2.735E-008	1.122E-005	      9.306
 3.800	 -271.25	  2.739E-008	1.126E-005	      9.302
 3.850	 -271.36	  2.705E-008	1.098E-005	      9.298
 3.900	 -271.51	  2.659E-008	1.060E-005	      9.294
 3.950	 -271.41	  2.687E-008	1.083E-005	      9.290
 4.000	 -271.15	  2.769E-008	1.150E-005	      9.286
 4.050	 -271.16	  2.768E-008	1.149E-005	      9.282
 4.100	 -271.33	  2.713E-008	1.104E-005	      9.279
 4.150	 -271.43	  2.682E-008	1.079E-005	      9.275
 4.200	 -271.39	  2.696E-008	1.090E-005	      9.271
 4.250	 -271.19	  2.756E-008	1.139E-005	      9.268
 4.300	 -271.10	  2.787E-008	1.165E-005	      9.264
 4.350	 -271.05	  2.802E-008	1.178E-005	      9.261
 4.400	 -271.00	  2.820E-008	1.193E-005	      9.257
 4.450	 -271.06	  2.800E-008	1.176E-005	      9.254
 4.500	 -271.20	  2.753E-008	1.137E-005	      9.250
 4.550	 -271.33	  2.714E-008	1.105E-005	      9.247
 4.600	 -271.41	  2.689E-008	1.085E-005	      9.244
 4.650	 -271.27	  2.732E-008	1.119E-005	      9.240
 4.700	 -271.01	  2.815E-008	1.189E-005	      9.237
 4.750	 -270.92	  2.845E-008	1.214E-005	      9.234
 4.800	 -270.86	  2.865E-008	1.231E-005	      9.231
 4.850	 -270.91	  2.848E-008	1.217E-005	      9.228
 4.900	 -270.84	  2.870E-008	1.235E-005	      9.225
 4.950	 -270.75	  2.899E-008	1.261E-005	      9.222
 5.000	 -270.74	  2.903E-008	1.264E-005	      9.219
 5.050	 -270.67	  2.928E-008	1.286E-005	      9.216
 5.100	 -270.56	  2.964E-008	1.317E-005	      9.213
 5.150	 -270.50	  2.985E-008	1.337E-005	      9.210
 5.200	 -270.52	  2.980E-008	1.332E-005	      9.207
 5.250	 -270.63	  2.940E-008	1.297E-005	      9.204
 5.300	 -270.67	  2.927E-008	1.285E-005	      9.202
 5.350	 -270.61	  2.949E-008	1.304E-005	      9.199
 5.400	 -270.54	  2.973E-008	1.326E-005	      9.196
 5.450	 -270.50	  2.987E-008	1.338E-005	      9.193
 5.500	 -270.59	  2.954E-008	1.309E-005	      9.191
 5.550	 -270.64	  2.937E-008	1.294E-005	      9.188
 5.600	 -270.68	  2.925E-008	1.284E-005	      9.186
 5.650	 -270.71	  2.915E-008	1.275E-005	      9.183
 5.700	 -270.77	  2.895E-008	1.257E-005	      9.181
 5.750	 -270.76	  2.897E-008	1.259E-005	      9.178
 5.800	 -270.74	  2.902E-008	1.264E-005	      9.176
 5.850	 -270.78	  2.892E-008	1.254E-005	      9.173
 5.900	 -270.79	  2.888E-008	1.251E-005	      9.171
 5.950	 -270.87	  2.862E-008	1.229E-005	      9.169
 6.000	 -270.87	  2.860E-008	1.227E-005	      9.166
 6.050	 -270.91	  2.848E-008	1.217E-005	      9.164
 6.100	 -270.86	  2.863E-008	1.230E-005	      9.162
 6.150	 -270.80	  2.882E-008	1.246E-005	      9.159
 6.200	 -270.84	  2.870E-008	1.236E-005	      9.157
 6.250	 -270.91	  2.848E-008	1.216E-005	      9.155
 6.300	 -270.99	  2.823E-008	1.195E-005	      9.153
 6.350	 -270.87	  2.862E-008	1.228E-005	      9.151
 6.400	 -270.74	  2.903E-008	1.264E-005	      9.149
 6.450	 -270.60	  2.950E-008	1.306E-005	      9.147
 6.500	 -270.65	  2.933E-008	1.290E-005	      9.145
 6.550	 -270.77	  2.893E-008	1.255E-005	      9.142
 6.600	 -270.89	  2.855E-008	1.222E-005	      9.140
 6.650	 -270.98	  2.823E-008	1.196E-005	      9.139
 6.700	 -270.97	  2.830E-008	1.201E-005	      9.137
 6.750	 -270.89	  2.854E-008	1.222E-005	      9.135
 6.800	 -270.93	  2.842E-008	1.212E-005	      9.133
 6.850	 -270.96	  2.830E-008	1.201E-005	      9.131
 6.900	 -270.96	  2.831E-008	1.203E-005	      9.129
 6.950	 -270.91	  2.847E-008	1.216E-005	      9.127
 7.000	 -270.88	  2.858E-008	1.225E-005	      9.125
 7.050	 -270.81	  2.881E-008	1.245E-005	      9.124
 7.100	 -270.93	  2.842E-008	1.212E-005	      9.122
 7.150	 -270.95	  2.836E-008	1.207E-005	      9.120
 7.200	 -270.89	  2.854E-008	1.222E-005	      9.118
 7.250	 -270.86	  2.865E-008	1.231E-005	      9.117
 7.300	 -270.87	  2.862E-008	1.228E-005	      9.115
 7.350	 -270.93	  2.841E-008	1.211E-005	      9.113
 7.400	 -270.95	  2.834E-008	1.205E-005	      9.112
 7.450	 -270.90	  2.852E-008	1.220E-005	      9.110
 7.500	 -270.88	  2.858E-008	1.225E-005	      9.108
 7.550	 -270.78	  2.890E-008	1.253E-005	      9.107
 7.600	 -270.86	  2.865E-008	1.231E-005	      9.105
 7.650	 -270.89	  2.853E-008	1.221E-005	      9.104
 7.700	 -270.85	  2.866E-008	1.232E-005	      9.102
 7.750	 -270.88	  2.856E-008	1.224E-005	      9.101
 7.800	 -270.87	  2.860E-008	1.227E-005	      9.099
 7.850	 -270.83	  2.873E-008	1.238E-005	      9.098
 7.900	 -270.82	  2.879E-008	1.243E-005	      9.096
 7.950	 -270.76	  2.897E-008	1.259E-005	      9.095
 8.000	 -270.77	  2.896E-008	1.258E-005	      9.093
 8.050	 -270.70	  2.919E-008	1.278E-005	      9.092
 8.100	 -270.77	  2.893E-008	1.255E-005	      9.090
 8.150	 -270.81	  2.879E-008	1.243E-005	      9.089
 8.200	 -270.82	  2.878E-008	1.242E-005	      9.088
 8.250	 -270.81	  2.881E-008	1.245E-005	      9.086
 8.300	 -270.79	  2.886E-008	1.249E-005	      9.085
 8.350	 -270.79	  2.889E-008	1.252E-005	      9.084
 8.400	 -270.71	  2.914E-008	1.273E-005	      9.082
 8.450	 -270.68	  2.924E-008	1.282E-005	      9.081
 8.500	 -270.65	  2.936E-008	1.293E-005	      9.080
 8.550	 -270.70	  2.916E-008	1.276E-005	      9.078
 8.600	 -270.72	  2.912E-008	1.272E-005	      9.077
 8.650	 -270.71	  2.914E-008	1.273E-005	      9.076
 8.700	 -270.71	  2.914E-008	1.273E-005	      9.075
 8.750	 -270.71	  2.915E-008	1.274E-005	      9.073
 8.800	 -270.75	  2.901E-008	1.262E-005	      9.072
 8.850	 -270.73	  2.907E-008	1.268E-005	      9.071
 8.900	 -270.67	  2.926E-008	1.284E-005	      9.070
 8.950	 -270.62	  2.946E-008	1.301E-005	      9.068
 9.000	 -270.58	  2.959E-008	1.313E-005	      9.067
 9.050	 -270.57	  2.962E-008	1.316E-005	      9.066
 9.100	 -270.57	  2.961E-008	1.315E-005	      9.065
 9.150	 -270.57	  2.962E-008	1.316E-005	      9.064
 9.200	 -270.59	  2.954E-008	1.309E-005	      9.063
 9.250	 -270.64	  2.937E-008	1.294E-005	      9.062
 9.300	 -270.67	  2.929E-008	1.287E-005	      9.060
 9.350	 -270.67	  2.926E-008	1.284E-005	      9.059
 9.400	 -270.69	  2.920E-008	1.279E-005	      9.058
 9.450	 -270.75	  2.900E-008	1.261E-005	      9.057
 9.500	 -270.83	  2.875E-008	1.240E-005	      9.056
 9.550	 -270.90	  2.851E-008	1.220E-005	      9.055
 9.600	 -270.91	  2.848E-008	1.217E-005	      9.054
 9.650	 -270.83	  2.873E-008	1.239E-005	      9.053
 9.700	 -270.72	  2.911E-008	1.271E-005	      9.052
 9.750	 -270.68	  2.924E-008	1.283E-005	      9.051
 9.800	 -270.71	  2.914E-008	1.274E-005	      9.050
 9.850	 -270.74	  2.904E-008	1.265E-005	      9.049
 9.900	 -270.77	  2.895E-008	1.257E-005	      9.048
 9.950	 -270.77	  2.894E-008	1.256E-005	      9.046
10.000	 -270.77	  2.893E-008	1.255E-005	      9.045
10.050	 -270.81	  2.881E-008	1.245E-005	      9.044
10.100	 -270.80	  2.884E-008	1.248E-005	      9.043
10.150	 -270.80	  2.884E-008	1.247E-005	      9.042
10.200	 -270.96	  2.830E-008	1.202E-005	      9.041
10.250	 -271.03	  2.810E-008	1.185E-005	      9.040
10.300	 -271.04	  2.807E-008	1.182E-005	      9.039
10.350	 -271.08	  2.792E-008	1.169E-005	      9.038
10.400	 -271.10	  2.786E-008	1.165E-005	      9.037
10.450	 -271.07	  2.794E-008	1.171E-005	      9.036
10.500	 -271.02	  2.812E-008	1.186E-005	      9.036
10.550	 -271.06	  2.799E-008	1.175E-005	      9.035
10.600	 -271.08	  2.791E-008	1.169E-005	      9.034
10.650	 -271.12	  2.780E-008	1.159E-005	      9.033
10.700	 -271.26	  2.736E-008	1.123E-005	      9.032
10.750	 -271.37	  2.700E-008	1.093E-005	      9.031
10.800	 -271.43	  2.683E-008	1.080E-005	      9.030
10.850	 -271.50	  2.661E-008	1.062E-005	      9.029
10.900	 -271.56	  2.641E-008	1.047E-005	      9.028
10.950	 -271.63	  2.622E-008	1.031E-005	      9.027
11.000	 -271.70	  2.600E-008	1.014E-005	      9.026
11.050	 -271.70	  2.600E-008	1.014E-005	      9.025
11.100	 -271.68	  2.607E-008	1.020E-005	      9.024
11.150	 -271.60	  2.629E-008	1.037E-005	      9.023
11.200	 -271.57	  2.638E-008	1.044E-005	      9.022
11.250	 -271.55	  2.644E-008	1.049E-005	      9.021
11.300	 -271.51	  2.659E-008	1.060E-005	      9.020
11.350	 -271.42	  2.685E-008	1.082E-005	      9.019
11.400	 -271.38	  2.698E-008	1.092E-005	      9.019
11.450	 -271.34	  2.711E-008	1.102E-005	      9.018
11.500	 -271.28	  2.729E-008	1.117E-005	      9.017
11.550	 -271.24	  2.741E-008	1.127E-005	      9.016
11.600	 -271.09	  2.788E-008	1.166E-005	      9.015
11.650	 -271.05	  2.801E-008	1.177E-005	      9.014
11.700	 -271.08	  2.792E-008	1.169E-005	      9.013
11.750	 -271.06	  2.799E-008	1.175E-005	      9.012
11.800	 -271.07	  2.795E-008	1.172E-005	      9.011
11.850	 -271.04	  2.805E-008	1.180E-005	      9.010
11.900	 -271.02	  2.811E-008	1.185E-005	      9.009
11.950	 -270.96	  2.832E-008	1.203E-005	      9.008
12.000	 -270.87	  2.862E-008	1.229E-005	      9.007
12.050	 -270.77	  2.894E-008	1.257E-005	      9.007
12.100	 -270.74	  2.903E-008	1.264E-005	      9.006
12.150	 -270.76	  2.896E-008	1.258E-005	      9.005
12.200	 -270.76	  2.898E-008	1.260E-005	      9.004
12.250	 -270.72	  2.910E-008	1.270E-005	      9.003
12.300	 -270.80	  2.883E-008	1.247E-005	      9.002
12.350	 -270.87	  2.862E-008	1.229E-005	      9.001
12.400	 -270.68	  2.924E-008	1.282E-005	      9.000
12.450	 -270.59	  2.955E-008	1.310E-005	      8.999
12.500	 -270.49	  2.988E-008	1.340E-005	      8.998
12.550	 -270.43	  3.008E-008	1.357E-005	      8.997
12.600	 -270.42	  3.012E-008	1.361E-005	      8.996
12.650	 -270.30	  3.056E-008	1.401E-005	      8.995
12.700	 -270.21	  3.086E-008	1.429E-005	      8.995
12.750	 -270.18	  3.096E-008	1.438E-005	      8.994
12.800	 -270.15	  3.109E-008	1.450E-005	      8.993
12.850	 -270.15	  3.108E-008	1.449E-005	      8.992
12.900	 -270.13	  3.114E-008	1.454E-005	      8.991
12.950	 -270.12	  3.118E-008	1.458E-005	      8.990
13.000	 -270.12	  3.120E-008	1.461E-005	      8.989
13.050	 -270.16	  3.103E-008	1.445E-005	      8.988
13.100	 -270.23	  3.079E-008	1.422E-005	      8.987
13.150	 -270.21	  3.086E-008	1.429E-005	      8.986
13.200	 -270.19	  3.093E-008	1.435E-005	      8.985
13.250	 -270.29	  3.059E-008	1.404E-005	      8.984
13.300	 -270.31	  3.053E-008	1.398E-005	      8.983
13.350	 -270.30	  3.054E-008	1.399E-005	      8.982
13.400	 -270.23	  3.078E-008	1.421E-005	      8.981
13.450	 -270.09	  3.131E-008	1.470E-005	      8.980
13.500	 -270.09	  3.130E-008	1.469E-005	      8.979
13.550	 -270.19	  3.095E-008	1.436E-005	      8.979
13.600	 -270.18	  3.097E-008	1.439E-005	      8.978
13.650	 -270.12	  3.120E-008	1.460E-005	      8.977
13.700	 -270.15	  3.108E-008	1.449E-005	      8.976
13.750	 -270.15	  3.110E-008	1.451E-005	      8.975
13.800	 -270.10	  3.128E-008	1.467E-005	      8.974
13.850	 -270.14	  3.113E-008	1.454E-005	      8.973
13.900	 -270.20	  3.090E-008	1.432E-005	      8.972
13.950	 -270.32	  3.049E-008	1.395E-005	      8.971
14.000	 -270.31	  3.051E-008	1.397E-005	      8.970
14.050	 -270.27	  3.065E-008	1.409E-005	      8.969
14.100	 -270.28	  3.061E-008	1.405E-005	      8.968
14.150	 -270.24	  3.076E-008	1.420E-005	      8.967
14.200	 -270.26	  3.070E-008	1.414E-005	      8.966
14.250	 -270.27	  3.064E-008	1.408E-005	      8.965
14.300	 -270.38	  3.028E-008	1.375E-005	      8.964
14.350	 -270.44	  3.008E-008	1.357E-005	      8.963
14.400	 -270.38	  3.028E-008	1.375E-005	      8.962
14.450	 -270.31	  3.053E-008	1.398E-005	      8.961
14.500	 -270.32	  3.048E-008	1.393E-005	      8.960
14.550	 -270.36	  3.035E-008	1.382E-005	      8.959
14.600	 -270.36	  3.035E-008	1.381E-005	      8.958
14.650	 -270.36	  3.035E-008	1.382E-005	      8.957
14.700	 -270.25	  3.071E-008	1.415E-005	      8.956
14.750	 -270.30	  3.055E-008	1.400E-005	      8.955
14.800	 -270.35	  3.039E-008	1.385E-005	      8.954
14.850	 -270.37	  3.030E-008	1.377E-005	      8.953
14.900	 -270.42	  3.014E-008	1.363E-005	      8.952
14.950	 -270.42	  3.012E-008	1.361E-005	      8.951
15.000	 -270.49	  2.987E-008	1.339E-005	      8.950
15.050	 -270.48	  2.992E-008	1.343E-005	      8.949
15.100	 -270.32	  3.050E-008	1.395E-005	      8.948
15.150	 -270.39	  3.022E-008	1.370E-005	      8.947
15.200	 -270.47	  2.997E-008	1.348E-005	      8.946
15.250	 -270.49	  2.990E-008	1.341E-005	      8.945
15.300	 -270.40	  3.020E-008	1.368E-005	      8.944
15.350	 -270.48	  2.992E-008	1.342E-005	      8.943
15.400	 -270.50	  2.987E-008	1.338E-005	      8.942
15.450	 -270.53	  2.974E-008	1.327E-005	      8.941
15.500	 -270.38	  3.028E-008	1.376E-005	      8.940
15.550	 -270.37	  3.030E-008	1.377E-005	      8.939
15.600	 -270.24	  3.075E-008	1.419E-005	      8.938
15.650	 -270.12	  3.117E-008	1.458E-005	      8.937
15.700	 -270.16	  3.104E-008	1.445E-005	      8.936
15.750	 -270.05	  3.142E-008	1.481E-005	      8.934
15.800	 -269.94	  3.184E-008	1.521E-005	      8.933
15.850	 -270.04	  3.149E-008	1.488E-005	      8.932
15.900	 -270.04	  3.148E-008	1.487E-005	      8.931
15.950	 -269.96	  3.176E-008	1.513E-005	      8.930
16.000	 -269.93	  3.187E-008	1.523E-005	      8.929
16.050	 -269.84	  3.220E-008	1.556E-005	      8.928
16.100	 -269.88	  3.205E-008	1.541E-005	      8.927
16.150	 -269.90	  3.199E-008	1.535E-005	      8.926
16.200	 -269.91	  3.194E-008	1.530E-005	      8.925
16.250	 -269.94	  3.183E-008	1.520E-005	      8.924
16.300	 -269.82	  3.228E-008	1.563E-005	      8.923
16.350	 -269.87	  3.211E-008	1.547E-005	      8.922
16.400	 -270.01	  3.159E-008	1.497E-005	      8.921
16.450	 -270.09	  3.128E-008	1.468E-005	      8.920
16.500	 -270.04	  3.149E-008	1.487E-005	      8.919
16.550	 -269.92	  3.191E-008	1.527E-005	      8.918
16.600	 -269.90	  3.198E-008	1.534E-005	      8.917
16.650	 -269.89	  3.201E-008	1.537E-005	      8.916
16.700	 -269.86	  3.213E-008	1.548E-005	      8.915
16.750	 -269.85	  3.216E-008	1.551E-005	      8.914
16.800	 -269.85	  3.216E-008	1.551E-005	      8.913
16.850	 -269.70	  3.273E-008	1.607E-005	      8.912
16.900	 -269.72	  3.267E-008	1.601E-005	      8.911
16.950	 -269.89	  3.203E-008	1.538E-005	      8.910
17.000	 -270.01	  3.158E-008	1.496E-005	      8.909
17.050	 -269.88	  3.206E-008	1.542E-005	      8.908
17.100	 -269.60	  3.313E-008	1.646E-005	      8.907
17.150	 -269.62	  3.303E-008	1.637E-005	      8.906
17.200	 -269.93	  3.189E-008	1.525E-005	      8.905
17.250	 -269.88	  3.206E-008	1.542E-005	      8.903
17.300	 -270.08	  3.133E-008	1.472E-005	      8.902
17.350	 -270.22	  3.084E-008	1.426E-005	      8.901
17.400	 -270.07	  3.137E-008	1.476E-005	      8.900
17.450	 -269.96	  3.177E-008	1.514E-005	      8.899
17.500	 -269.96	  3.176E-008	1.513E-005	      8.898
17.550	 -269.92	  3.192E-008	1.528E-005	      8.897
17.600	 -269.87	  3.211E-008	1.546E-005	      8.896
17.650	 -269.79	  3.239E-008	1.573E-005	      8.896
17.700	 -269.87	  3.211E-008	1.546E-005	      8.895
17.750	 -269.96	  3.176E-008	1.513E-005	      8.894
17.800	 -270.10	  3.126E-008	1.465E-005	      8.893
17.850	 -270.25	  3.071E-008	1.415E-005	      8.892
17.900	 -270.20	  3.091E-008	1.433E-005	      8.891
17.950	 -270.12	  3.117E-008	1.458E-005	      8.890
18.000	 -270.20	  3.091E-008	1.433E-005	      8.889
18.050	 -270.24	  3.077E-008	1.420E-005	      8.888
18.100	 -270.12	  3.120E-008	1.460E-005	      8.887
18.150	 -270.00	  3.162E-008	1.499E-005	      8.886
18.200	 -270.32	  3.047E-008	1.392E-005	      8.885
18.250	 -269.85	  3.218E-008	1.553E-005	      8.884
18.300	 -269.86	  3.214E-008	1.549E-005	      8.883
18.350	 -269.83	  3.226E-008	1.561E-005	      8.882
18.400	 -269.77	  3.248E-008	1.582E-005	      8.881
18.450	 -269.67	  3.285E-008	1.619E-005	      8.880
18.500	 -269.62	  3.302E-008	1.635E-005	      8.879
18.550	 -269.76	  3.252E-008	1.586E-005	      8.879
18.600	 -269.91	  3.195E-008	1.532E-005	      8.878
18.650	 -269.72	  3.268E-008	1.602E-005	      8.877
18.700	 -269.57	  3.322E-008	1.655E-005	      8.876
18.750	 -269.72	  3.266E-008	1.600E-005	      8.875
18.800	 -269.71	  3.271E-008	1.605E-005	      8.874
18.850	 -269.76	  3.249E-008	1.583E-005	      8.873
18.900	 -269.93	  3.186E-008	1.523E-005	      8.873
18.950	 -269.95	  3.181E-008	1.518E-005	      8.872
19.000	 -269.87	  3.208E-008	1.544E-005	      8.871
19.050	 -269.74	  3.258E-008	1.592E-005	      8.870
19.100	 -269.88	  3.206E-008	1.542E-005	      8.869
19.150	 -269.91	  3.196E-008	1.533E-005	      8.869
19.200	 -269.84	  3.221E-008	1.556E-005	      8.868
19.250	 -269.97	  3.172E-008	1.510E-005	      8.867
19.300	 -270.09	  3.131E-008	1.471E-005	      8.866
19.350	 -270.01	  3.158E-008	1.496E-005	      8.866
19.400	 -269.93	  3.188E-008	1.524E-005	      8.865
19.450	 -269.89	  3.204E-008	1.540E-005	      8.864
19.500	 -269.95	  3.181E-008	1.518E-005	      8.863
19.550	 -270.05	  3.146E-008	1.484E-005	      8.863
19.600	 -269.95	  3.180E-008	1.517E-005	      8.862
19.650	 -270.02	  3.156E-008	1.494E-005	      8.861
19.700	 -270.13	  3.115E-008	1.455E-005	      8.861
19.750	 -270.02	  3.154E-008	1.492E-005	      8.860
19.800	 -269.82	  3.230E-008	1.565E-005	      8.859
19.850	 -269.88	  3.208E-008	1.544E-005	      8.859
19.900	 -269.91	  3.196E-008	1.532E-005	      8.859
19.950	 -269.89	  3.203E-008	1.539E-005	      8.858
20.000	 -269.87	  3.211E-008	1.546E-005	      8.858
